
IRIS                                   
   wavelength          n/sec @ exit        std. dev.

      2.000            0.152636E+08         0.6E+06
      3.000            0.109178E+09         0.1E+07
      4.000            0.335078E+09         0.2E+07
      5.000            0.561046E+09         0.2E+07
      6.000            0.812352E+09         0.6E+07
      7.000            0.112367E+10         0.1E+08
      8.000            0.145011E+10         0.1E+08
      9.000            0.177884E+10         0.2E+08
     10.000            0.212253E+10         0.2E+08
     11.000            0.253981E+10         0.3E+08
     12.000            0.296160E+10         0.4E+08
     13.000            0.331326E+10         0.4E+08
     14.000            0.359569E+10         0.7E+08
     15.000            0.384551E+10         0.9E+08
     16.000            0.415778E+10         0.1E+09
     17.000            0.441214E+10         0.1E+09
     18.000            0.468500E+10         0.1E+09
     19.000            0.495366E+10         0.1E+09
     20.000            0.508266E+10         0.2E+09